timestamp_ms,pri_rpm,sec_rpm,speed_mph,g_x,g_y,g_z,fix_status,sat_count,time_s,driveline_angular_velocity,accel_x_ft_s_s,integrated_car_velocity_ft_s,effective_position_ft,racebox_speed_ft_s,racebox_position_ft,tire_angular_velocity
6551,1404.1,0.0,0.05,0.052,0.03,0.97,3,12,0.0,0.0,1.6730479999999999,0.0,0.0,0.07333333333333333,0.0,0.0
6607,1882.5,0.0,0.29,0.067,-0.017,1.021,3,15,0.056,0.0,2.1556580000000003,0.10720376800000002,0.0030017055040000005,0.4253333333333333,0.013962666666666665,0.0
6661,2243.3,0.0,0.19,0.093,0.004,1.027,3,15,0.11,0.0,2.992182,0.24619544800000004,0.012543484336000003,0.2786666666666667,0.03297066666666666,0.0
6711,2476.0,622.4,0.24,0.042,-0.016,0.996,3,15,0.16,65.17757558647624,1.351308,0.35478269800000006,0.027567937986000005,0.35200000000000004,0.04873733333333333,8.977627491250171
6761,2531.4,181.0,0.13,0.233,0.019,1.038,3,15,0.21,18.95427567665842,7.496542000000001,0.575978948,0.05083697913600001,0.19066666666666665,0.06230399999999999,2.6107817736444106
6811,2597.6,684.9,0.3,0.374,0.015,1.049,3,15,0.26,71.72256028145497,12.033076,1.064219398,0.09184193778600003,0.44,0.07807066666666666,9.879140534635672
6861,2850.2,583.0,0.17,0.65,0.013,1.2,3,15,0.31,61.05161723476165,20.9131,1.887873798,0.165644267686,0.24933333333333335,0.095304,8.409313668699951
6911,2828.5,567.4,0.6,0.677,0.04,0.969,3,15,0.36,59.41798905489495,21.781798000000002,2.955246248,0.28672226883599994,0.88,0.12353733333333333,8.18429601307093
6961,2946.7,655.0,1.87,0.8,0.072,0.908,3,16,0.41,68.59143960337715,25.7392,4.143271198,0.4641852049859999,2.7426666666666666,0.21410399999999996,9.447856694680048
7011,2790.3,592.9,2.33,0.772,0.033,0.835,3,16,0.46,62.08834281044628,24.838328,5.4077093980000015,0.7029597198860001,3.417333333333333,0.3681040000000001,8.552113334772216
7061,2793.8,700.2,2.9,0.724,0.04,0.91,3,16,0.51,73.32477253478578,23.293975999999997,6.611016998000001,1.0034278797860001,4.253333333333333,0.5598706666666666,10.099830927656443
7116,2936.0,847.5,3.26,0.762,0.077,0.926,3,15,0.565,88.74999246391165,24.516588,7.925807508,1.4031905537009997,4.781333333333333,0.8083239999999997,12.22451686830739
7166,3006.3,859.6,4.19,0.769,0.076,0.85,3,15,0.615,90.01710150085954,24.741806,9.157267358,1.830267425351,6.145333333333333,1.0814906666666666,12.399049793506824
7216,2807.0,864.1,4.67,0.704,0.015,0.867,3,15,0.665,90.48834039889802,22.650495999999997,10.342074908,2.3177509820010007,6.849333333333333,1.4063573333333337,12.463958732630582
7266,2979.3,925.0,5.21,0.628,0.019,0.911,3,16,0.715,96.8657734856853,20.205272,11.413469108,2.861639582401,7.641333333333333,1.768624,13.342393042105414
7316,3132.8,1018.0,5.8,0.591,0.055,0.93,3,16,0.765,106.60471071181364,19.014834,12.393971758,3.4568256040510006,8.506666666666666,2.172324,14.683844450663036
7366,3194.0,1035.4,6.67,0.53,0.048,0.886,3,16,0.815,108.42683445089574,17.052220000000002,13.295648107999998,4.099066100701,9.782666666666666,2.6295573333333326,14.934825681941563
7416,3210.6,1064.4,7.01,0.494,0.019,0.871,3,16,0.865,111.46370734936588,15.893956,14.119302507999999,4.784439866101001,10.281333333333333,3.1311573333333333,15.353127734072435
7466,3456.6,1159.2,7.37,0.421,0.07,0.948,3,16,0.915,121.3911401347096,13.545254,14.855282758,5.508804497751001,10.809333333333333,3.6584240000000006,16.72054271827956
7516,3318.8,1200.0,7.83,0.409,0.068,0.961,3,16,0.965,125.66370614359172,13.159165999999999,15.522893257999998,6.268258898151,11.484,4.215757333333333,17.309050433001616
7566,3351.8,1251.3,8.26,0.453,0.043,0.958,3,16,1.015,131.03582958123027,14.574822000000001,16.216242958,7.061737303550999,12.114666666666665,4.805724,18.049012339012435
7618,3457.4,1291.3,8.68,0.35,0.075,1.021,3,16,1.067,135.22461978601666,11.2609,16.88797173,7.922446885439,12.730666666666668,5.451702666666667,18.625980686779155
7668,3413.9,1333.3,9.03,0.311,0.039,0.947,3,16,1.117,139.62284950104237,10.006114,17.41964708,8.780137355689002,13.243999999999998,6.101069333333334,19.23179745193421
7718,3491.8,1362.4,9.03,0.311,0.039,0.947,3,16,1.167,142.6701943750245,10.006114,17.919952780000003,9.663627352189003,13.243999999999998,6.7632693333333345,19.651541924934502
7770,3440.0,1329.4,9.03,0.311,0.039,0.947,3,16,1.219,139.21444245607572,10.006114,18.440270708000003,10.608993162877004,13.243999999999998,7.451957333333335,19.17554303802696
7821,3511.9,1457.7,9.74,0.352,-0.039,0.915,3,16,1.27,152.64998703792804,11.325247999999998,18.984220439,11.563317687125503,14.285333333333334,8.153955333333334,21.026169013488712
7871,3470.2,1435.5,10.29,0.452,0.019,0.931,3,16,1.32,150.32520847427162,14.542648,19.630917839000002,12.528696144075504,15.091999999999999,8.888388666666668,20.705951580478185
7922,3712.2,1527.0,10.88,0.406,0.028,1.02,3,16,1.371,159.90706606772045,13.062644,20.334852785000002,13.547823294987502,15.957333333333334,9.680146666666667,22.025766675994554
7971,3476.0,1518.4,11.17,0.461,0.025,0.997,3,16,1.42,159.0064761736914,14.832214,21.018276806000003,14.560974969967,16.382666666666665,10.472476666666667,21.901718481224712
8021,3628.0,1586.0,11.44,0.378,0.057,0.935,3,16,1.47,166.0855316197804,12.161772,21.693126456000005,15.628760051517002,16.778666666666666,11.30151,22.87679498895047
8071,3404.8,1606.4,11.44,0.378,0.057,0.935,3,16,1.52,168.22181462422148,12.161772,22.301215056000007,16.728618589317,16.778666666666666,12.140443333333334,23.1710488463115
8123,3645.6,1619.7,11.84,0.405,0.009,0.769,3,16,1.572,169.61458736731294,13.030470000000001,22.95621334800001,17.905311727821,17.365333333333332,13.028187333333335,23.36289082194393
8173,3524.2,1659.5,12.65,0.397,0.049,0.879,3,16,1.622,173.7824336210754,12.773078,23.601302048000008,19.069249612721002,18.553333333333335,13.926154000000002,23.936974327971818
8223,3485.3,1746.7,13.02,0.301,0.024,0.99,3,16,1.672,182.91399626750973,9.684374,24.162738348000005,20.263350622620997,19.095999999999997,14.867387333333332,25.19476532610327
8273,3573.1,1767.4,13.37,0.368,0.077,1.064,3,16,1.722,185.08169519848667,11.840031999999999,24.700848498000006,21.484940293771,19.609333333333332,15.835020666666665,25.493346446072543
8323,3541.1,1869.9,13.35,0.349,0.084,1.067,3,16,1.772,195.8154700982518,11.228725999999998,25.277567448000006,22.734400692421,19.58,16.814754,26.97182783722477
8373,3675.6,1874.1,13.35,0.349,0.084,1.067,3,16,1.822,196.25529306975437,11.228725999999998,25.839003748000007,24.012314972321004,19.58,17.793754,27.032409513740273
8423,3514.3,1906.6,13.65,0.321,0.09,0.945,3,16,1.872,199.6586851111433,10.327854,26.377918248000007,25.317738022221004,20.02,18.783754000000002,27.501196296300733
8473,3553.2,1911.7,14.15,0.288,0.049,0.962,3,16,1.922,200.1927558622536,9.266112,26.867767398000005,26.648880163371,20.753333333333334,19.80308733333333,27.57475976064099
8523,3356.3,1999.6,14.54,0.364,0.128,1.04,3,16,1.972,209.39762233727166,11.711336,27.392203598000005,28.005379438271003,21.325333333333333,20.855054,28.842647704858354
8573,3562.9,1973.9,14.76,0.34,0.09,0.981,3,16,2.022,206.70632463069643,10.939160000000001,27.958465998000005,29.389146178171,21.648,21.929387333333327,28.471945541418243
8624,3490.6,2042.1,15.02,0.307,0.118,0.86,3,16,2.073,213.84821192985723,9.877418,28.489288737000006,30.828563923913503,22.02933333333333,23.04315933333333,29.4556765743605
8675,3512.1,2000.4,15.02,0.307,0.118,0.86,3,16,2.124,209.4813981413674,9.877418,28.99303705500001,32.29436323160951,22.02933333333333,24.166655333333335,28.854187071813694
8724,3346.7,2020.2,15.79,0.309,0.089,1.028,3,16,2.173,211.5548492927367,9.941766,29.47860706300001,33.72691851250051,23.158666666666665,25.273761333333333,29.139786403958222
8774,3714.5,2134.5,16.2,0.374,0.036,0.997,3,15,2.223,223.5243173029138,12.033076,30.027978113000007,35.214583141900505,23.76,26.446727999999997,30.788473457701627
8825,3512.5,2101.7,16.17,0.263,0.052,1.041,3,15,2.274,220.08950933498892,8.461762,30.55059648200001,36.75933679407301,23.716,27.657366,30.31535941253291
8874,3704.8,2175.8,16.39,0.313,0.027,0.951,3,16,2.323,227.84924318935575,10.070462,31.00463597000001,38.26743998914701,24.038666666666664,28.82735533333333,31.384193276770766
8924,3277.1,2096.4,16.77,0.323,0.04,1.007,3,15,2.373,219.53449463285475,10.392202,31.51620257000001,39.830460952647016,24.595999999999997,30.043222000000004,30.238911106453823
8974,3572.9,2216.8,16.77,0.323,0.04,1.007,3,15,2.423,232.1427531492618,10.392202,32.03581267000001,41.41926133364701,24.595999999999997,31.273021999999997,31.975585833231655
9024,3537.9,2182.5,17.0,0.327,0.002,1.02,3,16,2.473,228.55086554865744,10.520898,32.55864017000001,43.034122654647,24.933333333333334,32.511255333333324,31.48083547502169
9074,3423.5,2296.7,17.44,0.227,0.006,1.033,3,15,2.523,240.5098615833226,7.303498,33.00425007000001,44.67319491064701,25.57866666666667,33.77405533333333,33.12808010789568
9125,3681.4,2258.9,17.44,0.227,0.006,1.033,3,15,2.574,236.55145483979948,7.303498,33.37672846800001,46.36590986336601,25.57866666666667,35.078567333333325,32.582845019256126
9175,3464.0,2346.9,17.57,0.208,0.021,0.966,3,16,2.624,245.76679329032953,6.6921919999999995,33.726620718000014,48.04349359301602,25.769333333333336,36.362267333333335,33.852175384342914
9225,3518.9,2315.4,17.86,0.273,0.04,0.989,3,16,2.674,242.46812100406024,8.783502,34.11351306800001,49.73949693766601,26.194666666666667,37.66136733333333,33.397812810476616
9275,3379.3,2388.3,17.86,0.273,0.04,0.989,3,16,2.724,250.10219115228344,8.783502,34.55268816800001,51.45615196856602,26.194666666666667,38.97110066666667,34.44933762428147
9325,3669.1,2417.2,18.47,0.202,0.022,1.023,3,15,2.774,253.12859207524158,6.499148,34.93475441800001,53.193338033216016,27.089333333333332,40.30320066666667,34.86619725554292
9375,3438.0,2398.1,18.62,0.328,0.025,0.947,3,16,2.824,251.1284447524561,10.553072,35.36105991800001,54.95073339161601,27.309333333333335,41.663167333333334,34.59069486948431
9425,3513.7,2305.7,18.64,0.229,0.04,0.935,3,15,2.874,241.4523393793995,7.367846,35.80908286800001,56.72998696126602,27.338666666666665,43.02936733333334,33.257897986143185
9475,3333.3,2361.3,18.79,0.237,0.068,0.866,3,15,2.924,247.27475776405262,7.6252379999999995,36.18390996800001,58.529811782166014,27.558666666666667,44.40180066666667,34.05988398953893
9525,3678.5,2448.6,19.4,0.17,0.018,0.912,3,15,2.974,256.4167923859989,5.4695800000000006,36.51128041800001,60.347191541816024,28.45333333333333,45.802100666666675,35.319117408539796
9576,3468.2,2456.4,19.4,0.17,0.018,0.912,3,15,3.025,257.2336064759323,5.4695800000000006,36.79022899800001,62.21638003192401,28.45333333333333,47.253220666666664,35.43162623635431
9626,3665.0,2559.5,19.89,0.206,0.016,0.991,3,15,3.075,268.0302132287692,6.627844,37.09266459800001,64.06345237182403,29.172,48.693854,36.918762152723026
9676,3520.3,2510.7,19.92,0.161,-0.013,0.988,3,15,3.125,262.9198891789298,5.180014,37.38786104800001,65.92546551297401,29.216,50.153554,36.21486076844763
9728,3467.8,2610.3,20.0,0.206,0.04,0.974,3,16,3.177,273.3499767888479,6.627844,37.694865356000015,67.87761639947801,29.333333333333332,51.67583666666667,37.65151195438677
9777,3518.9,2582.0,20.0,0.223,-0.004,0.938,3,16,3.226,270.38640771896155,7.174802,38.033030183000015,69.73294984018351,29.333333333333332,53.11317,37.24330684834181
9827,3315.8,2644.8,20.3,0.142,-0.023,0.966,3,16,3.276,276.96280834047616,4.568707999999999,38.326617933000016,71.6419410430835,29.773333333333333,54.59083666666666,38.14914715433556
9881,3513.7,2595.4,20.3,0.142,-0.023,0.966,3,16,3.33,271.789652437565,4.568707999999999,38.573328165000014,73.71823958772951,29.773333333333333,56.19859666666667,37.43659124484366
9930,3320.6,2660.3,20.57,0.215,-0.031,1.016,3,16,3.379,278.5859645448309,6.917409999999999,38.854738056000016,75.61522721014401,30.169333333333334,57.667192,38.372722389095166
9980,3658.5,2641.3,20.84,0.143,-0.018,1.014,3,16,3.429,276.5962891975574,4.6008819999999995,39.14269535600002,77.56516304544401,30.56533333333333,59.18555866666666,38.09866242390598
10031,3455.0,2686.7,21.09,0.182,-0.027,0.91,3,16,3.48,281.3505660799899,5.855668,39.40933738100002,79.56823988023751,30.932,60.753740666666666,38.7535214986212
10080,3514.1,2757.1,21.35,0.146,0.006,0.979,3,16,3.529,288.72283684041395,4.697404,39.66788764500002,81.50563189337451,31.313333333333336,62.27875133333333,39.76898579069063
10131,3373.8,2702.0,21.45,0.265,-0.055,1.048,3,16,3.58,282.9527783333207,8.526110000000001,40.005087252000024,83.53729275324802,31.46,63.879471333333335,38.97421189164197
10182,3553.2,2752.5,21.38,0.26,-0.007,0.946,3,16,3.631,288.24112596686354,8.36524,40.43581667700002,85.58853580343751,31.357333333333333,65.48131333333333,39.70263443069746
10232,3271.0,2727.0,21.38,0.26,-0.007,0.946,3,16,3.681,285.5707722113122,8.36524,40.854078677000025,87.62078318728751,31.357333333333333,67.04918,39.33481710899617
10282,3474.0,2759.4,21.83,0.246,-0.037,0.865,3,16,3.731,288.9636922771892,7.914804,41.26107977700002,89.6736621486375,32.01733333333333,68.63354666666667,39.80216147068722
10332,3475.6,2737.5,21.83,0.246,-0.037,0.865,3,16,3.781,286.6703296400686,7.914804,41.65681997700002,91.74660964248751,32.01733333333333,70.23441333333335,39.48627130028493
10382,3436.2,2816.1,21.83,0.246,-0.037,0.865,3,16,3.831,294.90130239247384,7.914804,42.05256017700002,93.83934414633751,32.01733333333333,71.83528000000001,40.62001410364653
10432,3567.2,2787.8,22.15,0.301,-0.058,0.973,3,16,3.881,291.9377333225875,9.684374,42.49253962700001,95.9529716414375,32.486666666666665,73.44788000000001,40.21180899760159
10483,3443.1,2908.7,22.26,0.247,-0.016,1.028,3,16,3.932,304.59835171655436,7.946978,42.94213910300002,98.13155594905251,32.648,75.10881400000002,41.9556958287265
10532,3499.4,2867.8,22.26,0.247,-0.016,1.028,3,16,3.981,300.31531373216035,7.946978,43.331541025000014,100.24526111218852,32.648,76.70856600000002,41.36574569313503
10582,3437.6,2849.0,22.58,0.137,-0.015,1.004,3,16,4.031,298.34658233591074,4.407838,43.64041142500001,102.41955992343851,33.117333333333335,78.35269933333335,41.09457056968468
10634,3614.2,3038.6,22.58,0.137,-0.015,1.004,3,16,4.083,318.20144790659816,4.407838,43.86961900100001,104.69482071451453,33.117333333333335,80.0748006666667,43.82940053809892
10683,3443.5,2839.3,22.64,0.274,0.022,0.888,3,16,4.132,297.33080071125,8.815676,44.19359509400001,106.85236945984201,33.205333333333336,81.69970600000002,40.95465574535124
10733,3608.2,2883.5,23.32,0.211,0.035,1.021,3,16,4.182,301.959413887539,6.788714,44.58370484400002,109.07180195829204,34.202666666666666,83.38490600000004,41.592205769633466
10783,3493.9,2887.7,23.39,0.119,-0.001,0.953,3,16,4.232,302.3992368590415,3.828706,44.84914034400002,111.30762308799204,34.30533333333333,85.09760600000004,41.65278744614896
10833,3452.4,2983.3,23.39,0.119,-0.001,0.953,3,16,4.282,312.410445448481,3.828706,45.04057564400002,113.55486598769204,34.30533333333333,86.8128726666667,43.03174179731144
10883,3669.5,2913.8,23.32,0.167,-0.028,0.975,3,16,4.332,305.13242246766464,5.373058,45.27061974400002,115.81264587239204,34.202666666666666,88.5255726666667,42.02925929306676
10933,3267.4,3598.4,23.5,0.08,-0.014,0.967,3,16,4.382,376.8235668225837,2.57392,45.46929419400002,118.08114372084204,34.46666666666667,90.24230600000003,51.904072565094175
10983,3503.2,2951.6,23.56,0.094,-0.001,0.957,3,16,4.432,309.0908292111878,3.024356,45.60925109400002,120.35810735304207,34.55466666666666,91.96783933333339,42.57449438170631
11033,3449.3,2934.3,23.71,0.151,0.0,0.881,3,16,4.482,307.27917744761766,4.858274,45.80631684400002,122.64349655149206,34.77466666666667,93.70107266666672,42.324955571297195
11083,3503.2,3018.4,24.07,0.217,-0.042,1.01,3,16,4.532,316.08610885318103,6.981758,46.102317644000024,124.94121241369206,35.30266666666667,95.45300600000004,43.53803152247673
11134,3396.7,2980.6,24.07,0.217,-0.042,1.01,3,16,4.583,312.1277021096579,6.981758,46.45838730200003,127.30151038981506,35.30266666666667,97.25344200000005,42.99279643383718
11184,3659.4,3043.2,24.04,0.096,-0.019,1.001,3,16,4.633,318.68315878014863,3.088704,46.710148852000025,129.63072379366506,35.25866666666666,99.01747533333338,43.8957518980921
11234,3312.2,3005.7,24.2,0.072,-0.023,0.973,3,16,4.683,314.7561679631614,2.316528,46.84527965200002,131.96960950626504,35.49333333333333,100.78627533333338,43.3548440720608
11284,3348.8,3127.9,24.45,0.202,-0.008,0.892,3,16,4.733,327.5529220387838,6.499148,47.065671552000026,134.31738328636504,35.86,102.5701086666667,45.11748237448813
11334,3510.8,3051.6,24.78,0.1,-0.04,0.974,3,16,4.783,319.56280472315376,3.2174,47.30858525200003,136.67673970646507,36.344,104.37520866666672,44.01691525112311
11384,3288.9,3132.8,24.72,0.204,-0.055,0.983,3,16,4.833,328.06604883887013,6.563496,47.55310765200003,139.04828202906506,36.256,106.19020866666672,45.188160997089554
11434,3499.0,3060.0,24.72,0.204,-0.055,0.983,3,16,4.883,320.4424506661589,6.563496,47.88128245200003,141.43414178166506,36.256,108.00300866666672,44.13807860415412
11484,3436.4,3161.6,24.56,0.202,-0.025,1.026,3,16,4.933,331.0819777863163,6.499148,48.20784855200003,143.83637005676505,36.02133333333333,109.80994200000005,45.60357820748159
11534,3496.7,3144.7,24.8,0.243,-0.011,0.988,3,16,4.983,329.3122139247941,7.818282,48.565784302000026,146.25571087811505,36.373333333333335,111.61980866666671,45.35980908055015
11584,3280.8,3058.1,25.01,0.23,-0.01,0.93,3,16,5.033,320.2434831314315,7.4000200000000005,48.94624185200003,148.6935115319651,36.681333333333335,113.4461753333334,44.110672607635195
11635,3699.6,3170.6,25.01,0.23,-0.01,0.93,3,16,5.084,332.0244555823932,7.4000200000000005,49.32364287200002,151.19939359242707,36.681333333333335,115.31692333333338,45.7333960857291
11685,3446.9,3352.3,25.2,0.245,-0.065,0.93,3,16,5.134,351.0520350876355,7.88263,49.70570912200003,153.67512739227712,36.96,117.15795666666673,48.35427480545943
11735,3614.7,3139.7,25.2,0.245,-0.065,0.93,3,16,5.184,328.7886151491958,7.88263,50.09984062200003,156.1702661358771,36.96,119.00595666666673,45.287688037079306
11785,3639.9,3106.6,25.17,0.183,-0.078,1.008,3,16,5.234,325.322391254735,5.887842,50.44410242200003,158.6838647119771,36.916000000000004,120.85285666666672,44.81024672930234
11835,3308.9,3264.8,25.13,0.24,-0.067,1.011,3,16,5.284,341.8890565146652,7.72176,50.78434247200003,161.2145758343271,36.85733333333333,122.69719000000005,47.09215654471972
11886,3483.3,3146.6,25.24,0.065,-0.116,0.912,3,16,5.335,329.5111814595214,2.09131,51.03457575700003,163.8109582491666,37.01866666666666,124.58102800000006,45.387215077069065
11936,3401.4,3260.5,25.28,0.234,-0.094,0.95,3,16,5.385,341.43876156765066,7.528716,51.27507640700003,166.3686995532666,37.07733333333333,126.43342800000005,47.0301324473348
11986,3643.0,3263.7,25.38,0.158,-0.006,1.075,3,16,5.435,341.77386478403355,5.083492,51.590381607000026,168.94033600361658,37.224,128.29096133333337,47.07628991515614
12036,3349.9,3182.7,25.38,0.158,-0.006,1.075,3,16,5.485,333.29156461934116,5.083492,51.84455620700003,171.52620944896663,37.224,130.1521613333334,45.907929010928534
12086,3459.4,3240.4,25.64,0.114,-0.025,0.896,3,16,5.535,339.33389448974555,3.667836,52.06333940700003,174.12390683931662,37.605333333333334,132.02289466666673,46.74020585258203
12137,3275.1,3153.6,25.64,0.114,-0.025,0.896,3,16,5.586,330.24421974535903,3.667836,52.25039904300003,176.78390716979163,37.605333333333334,133.94076666666675,45.48818453792824
12187,3468.0,3240.4,25.64,0.114,-0.025,0.896,3,16,5.636,339.33389448974555,3.667836,52.43379084300003,179.40101191694163,37.605333333333334,135.82103333333342,46.74020585258203
12237,3476.0,3247.8,26.13,0.146,-0.052,0.901,3,16,5.686,340.10882067763106,4.697404,52.64292184300003,182.02792973409163,38.324,137.71926666666675,46.84694499691888
12287,3288.9,3303.6,26.21,0.091,-0.007,0.925,3,16,5.736,345.952183013308,2.927834,52.83355279300003,184.66484159999163,38.44133333333334,139.63840000000008,47.651815842053445
12337,3488.0,3269.0,26.21,0.091,-0.007,0.925,3,16,5.786,342.32887948616775,2.927834,52.97994449300003,187.31017903214163,38.44133333333334,141.56046666666674,47.15273822123523
12387,3421.1,3322.3,26.44,0.192,-0.03,0.903,3,16,5.836,347.9104424340457,6.177408,53.20757554300004,189.96486703304168,38.77866666666667,143.49096666666676,47.9215485446344
12437,3314.4,3106.6,26.44,0.192,-0.03,0.903,3,16,5.886,325.322391254735,6.177408,53.516445943000036,192.63296757019168,38.77866666666667,145.4299000000001,44.81024672930234
12487,3116.4,2997.6,26.16,0.188,-0.09,0.934,3,16,5.936,313.90793794669213,6.048712,53.822098943000036,195.31643119234167,38.367999999999995,147.35856666666675,43.238007981638034
