timestamp_ms,pri_rpm,sec_rpm,speed_mph,g_x,g_y,g_z,fix_status,sat_count,time_s,driveline_angular_velocity,accel_x_ft_s_s,integrated_car_velocity_ft_s,effective_position_ft,tire_angular_velocity
3240,1588.1,0.0,0.0,0.0,0.0,0.0,0,0,0.0,0.0,0.0,0.0,0.0,0.0
3290,1650.7,0.0,0.0,0.0,0.0,0.0,0,0,0.05,0.0,0.0,0.0,0.0,0.0
3340,2026.9,0.0,0.0,0.0,0.0,0.0,0,0,0.1,0.0,0.0,0.0,0.0,0.0
3390,2351.3,0.0,0.0,0.0,0.0,0.0,0,0,0.15,0.0,0.0,0.0,0.0,0.0
3440,2538.1,400.2,0.0,0.0,0.0,0.0,0,0,0.2,41.90884599888784,0.0,0.0,0.0,5.772568319406039
3490,2635.3,179.9,0.0,0.0,0.0,0.0,0,0,0.25,18.839083946026793,0.0,0.0,0.0,2.594915144080826
3540,2581.1,603.0,0.0,0.0,0.0,0.0,0,0,0.3,63.14601233715484,0.0,0.0,0.0,8.697797842583313
3593,2816.2,750.3,0.0,0.0,0.0,0.0,0,0,0.353,78.57123226628072,0.0,0.0,0.0,10.822483783234258
3645,2919.6,321.9,0.0,0.0,0.0,0.0,0,0,0.405,33.709289173018476,0.0,0.0,0.0,4.6431527786526825
3695,2712.1,723.3,0.0,0.0,0.0,0.0,0,0,0.455,75.7437988780499,0.0,0.0,0.0,10.433030148491722
3745,2830.5,734.2,0.0,0.0,0.0,0.0,0,0,0.505,76.8852442088542,0.0,0.0,0.0,10.590254023258154
3795,2944.8,728.6,0.0,0.0,0.0,0.0,0,0,0.555,76.2988135801841,0.0,0.0,0.0,10.509478454570813
3845,3104.6,801.6,0.0,0.0,0.0,0.0,0,0,0.605,83.94335570391927,0.0,0.0,0.0,11.562445689245079
3895,2987.3,887.5,0.0,0.0,0.0,0.0,0,0,0.655,92.93878266869804,0.0,0.0,0.0,12.801485216074111
3945,2986.0,861.8,0.0,0.0,0.0,0.0,0,0,0.705,90.24748496212278,0.0,0.0,0.0,12.430783052633993
3997,3128.6,986.4,0.0,0.0,0.0,0.0,0,0,0.757,103.2955664500324,0.0,0.0,0.0,14.228039455927327
4046,3181.0,1029.8,0.0,0.0,0.0,0.0,0,0,0.806,107.84040382222562,0.0,0.0,0.0,14.85405011325422
4096,3066.7,1049.2,0.0,0.0,0.0,0.0,0,0,0.856,109.87196707154703,0.0,0.0,0.0,15.13387976192108
4147,3310.5,1156.2,0.0,0.0,0.0,0.0,0,0,0.907,121.07698086935062,0.0,0.0,0.0,16.677270092197055
4197,3335.6,1185.5,0.0,0.0,0.0,0.0,0,0,0.957,124.14526969435666,0.0,0.0,0.0,17.099899406936178
4247,3319.0,1186.9,0.0,0.0,0.0,0.0,0,0,1.007,124.29187735152419,0.0,0.0,0.0,17.120093299108017
4297,3413.4,1295.8,0.0,1.012,0.003,0.002,87,0,1.057,135.69585868405514,32.560088,0.8140022000000008,0.020350055000000037,18.690889625902912
4350,3311.8,1291.8,0.0,1.007,0.08,0.772,0,0,1.11,135.2769796635765,32.399218,2.535423809000006,0.10910984423850048,18.63319279112624
4399,3443.7,1356.3,0.06,0.855,0.074,0.844,3,16,1.159,142.03140386879457,27.50877,4.003169515000003,0.2693053806765005,19.56355425190008
4449,3386.8,1391.0,0.0,0.679,0.044,0.935,0,0,1.209,145.66517937144675,21.846146,5.237042415000005,0.5003106789265009,20.06407429358771
4499,3309.2,1489.6,0.0,0.499,0.056,1.016,0,0,1.259,155.99054722624518,16.054826,6.184566715000002,0.7858509071765001,21.48630127083267
4550,3473.2,1490.8,0.0,0.464,0.023,0.871,0,0,1.31,156.11621093238878,14.928736,6.974647546000004,1.1214108708320012,21.503610321265672
4600,3402.5,1512.6,0.0,0.432,0.0,0.767,0,0,1.36,158.39910159399736,13.899168,7.695345146000005,1.4881606881320018,21.818058070798536
4651,3581.4,1567.9,0.0,0.352,0.044,0.87,0,0,1.411,164.19010405211458,11.325247999999998,8.338567754000003,1.8970254670820015,22.61571681158603
4701,3246.9,1582.3,0.0,0.397,0.058,0.987,0,0,1.461,165.69806852583764,12.773078,8.941025904000004,2.3290153085320022,22.823425416782044
4751,3589.4,1660.0,0.0,0.402,0.052,1.022,0,0,1.511,173.8347934986352,12.933948000000001,9.583701554000001,2.792133494982001,23.9441864323189
4801,3276.9,1654.8,0.0,0.372,0.013,0.874,0,0,1.561,173.29025077201297,11.968728,10.206268454000002,3.2868827451820013,23.869180547109224
4851,3450.3,1774.3,0.0,0.312,0.054,0.912,0,0,1.611,185.80426150881235,10.038288,10.756443854000002,3.810950552882002,25.592873486062306
4901,3441.2,1769.6,0.0,0.384,0.014,0.937,0,0,1.661,185.31207865974994,12.354816,11.316271454000002,4.3627684355820024,25.52507970519972
4951,3353.5,1845.7,0.0,0.364,0.032,0.94,0,0,1.711,193.28125202435604,11.711336,11.917925254000004,4.943623353282003,26.6227619868259
5001,3401.6,1859.1,0.0,0.438,0.056,0.948,0,0,1.761,194.68449674295945,14.092212,12.563013954,5.555646833482001,26.81604638332775
5051,3341.9,1835.9,0.0,0.438,0.056,0.948,0,0,1.811,192.25499842418338,14.092212,13.267624554000001,6.201412796182002,26.481404741623056
5101,3414.1,1896.8,0.0,0.236,0.03,0.959,0,0,1.861,198.63243151097063,7.593063999999999,13.809756454000002,6.8783473213820026,27.359839051097886
5156,3212.9,1910.9,0.0,0.264,-0.001,0.933,0,0,1.916,200.10898005815787,8.493936,14.252148954,7.650049720102002,27.563220393685658
5206,3516.2,1969.3,0.0,0.347,-0.003,0.905,0,0,1.966,206.224613757146,11.164378,14.743606804,8.374943614052002,28.40559418142507
5256,3514.7,1982.6,0.0,0.362,0.086,1.029,0,0,2.016,207.61738650023744,11.646987999999999,15.313890954000001,9.126381058002003,28.5974361570575
5306,3339.8,2110.1,0.0,0.323,0.096,1.023,0,0,2.066,220.96915527799408,10.392202,15.864870704,9.905850099452001,30.43652276556392
5356,3406.6,2118.6,0.0,0.34,-0.008,0.941,0,0,2.116,221.8592731965112,10.939160000000001,16.398154754000004,10.712425735902006,30.559128539464353
5406,3341.3,2099.5,0.0,0.34,-0.008,0.941,0,0,2.166,219.85912587372567,10.939160000000001,16.945112754,11.546007423602003,30.28362615340574
5456,3378.0,2134.5,0.0,0.369,-0.015,0.922,0,0,2.216,223.5243173029138,11.872206,17.515396904000003,12.407520165052007,30.788473457701627
5506,3372.1,2152.4,0.0,0.372,-0.012,0.908,0,0,2.266,225.39880091955573,11.968728,18.111420254000002,13.298190594002005,31.046666793327237
5556,3172.4,2280.5,0.0,0.403,0.006,0.933,0,0,2.316,238.81340155038413,12.966122,18.734791504,14.219345887952002,32.89440792705015
5606,3520.9,2278.4,0.0,0.314,0.06,1.046,0,0,2.366,238.59349006463285,10.102636,19.311510454000004,15.170503436902008,32.864117088792405
5657,3308.5,2226.2,16.37,0.278,-0.009,0.866,3,4,2.417,233.12711884738655,8.944372000000001,19.797209158,16.167775787008,32.11117339495683
5711,3405.0,2318.0,16.53,0.276,-0.03,0.83,3,4,2.471,242.74039236737136,8.880024,20.278467850000002,17.249819066224006,33.435315753081454
5761,3197.6,2250.7,16.15,0.304,-0.02,0.858,3,4,2.521,235.6927528478182,9.780896,20.74499085,18.275405533724005,32.464566507963944
5811,3181.8,2403.3,15.46,0.324,-0.039,0.983,3,4,2.571,251.67298747907836,10.424376,21.25012265,19.32528337122401,34.66570075469399
5861,3492.2,2335.4,14.89,0.313,-0.006,1.027,3,4,2.621,244.56251610645344,10.070462,21.7624936,20.400598777474006,33.68629698435998
5911,3182.7,2370.2,14.81,0.296,0.004,1.006,3,4,2.671,248.20676358461756,9.523503999999999,22.252342749999997,21.500969686224003,34.18825944691702
5961,3467.0,2424.8,15.92,0.302,0.044,0.931,3,4,2.721,253.92446221415102,9.716548,22.73334405,22.62561185622401,34.9758212416186
6011,3334.1,2367.4,17.32,0.29,0.035,0.897,3,7,2.771,247.91354827028255,9.330459999999999,23.209519249999996,23.774183438724005,34.14787166257335
6061,3121.3,2527.2,17.73,0.265,0.059,0.876,3,8,2.821,264.64776513840417,8.526110000000001,23.6559335,24.945819757474013,36.4528602119014
6111,3339.6,2702.7,18.86,0.263,-0.014,0.949,3,10,2.871,283.0260821619044,8.461762,24.0806303,26.139233852474007,38.98430883772788
6168,3284.3,2588.7,19.49,0.206,-0.008,1.029,3,10,2.928,271.0880300782632,6.627844,24.510684071,27.524086312047505,37.33994904659273
6217,3454.8,2558.2,19.8,0.192,-0.023,0.951,3,10,2.977,267.8940775471136,6.177408,24.824412745,28.732796184039504,36.90001068142061
6267,3282.1,2508.2,19.89,0.139,0.001,0.936,3,10,3.027,262.65808979113064,4.472186000000001,25.090652595,29.98067281753951,36.17880024671221
6317,3126.0,2650.4,20.08,0.234,-0.051,0.966,3,10,3.077,277.54923896914624,7.528716,25.390675145,31.242706011039505,38.2299227230229
6367,3454.4,2577.3,20.43,0.264,-0.003,1.049,3,10,3.127,269.8942248698992,8.493936,25.791241444999997,32.5222539257895,37.17551306747923
6417,3284.4,2577.3,20.53,0.232,0.01,0.971,3,10,3.177,269.8942248698992,7.464368,26.190199045,33.82178993803951,37.17551306747923
6467,3473.2,2657.5,20.58,0.218,0.004,0.955,3,10,3.227,278.2927492304959,7.013932,26.552156545,35.1403488277895,38.3323346047515
6521,3176.6,2602.8,20.76,0.189,0.021,0.978,3,10,3.281,272.56457862545045,6.080886,26.905716631,36.58371140354151,37.543330389180504
6571,3280.8,2730.0,20.81,0.275,0.0,0.983,3,10,3.331,285.88493147667117,8.847850000000001,27.278935031,37.9383276950915,39.378089735078674
6621,3485.5,2704.9,21.1,0.278,0.009,1.036,3,10,3.381,283.25646562316774,8.944372000000001,27.723740580999998,39.3133945853915,39.01604209685506
6672,3110.4,2688.2,20.87,0.219,0.021,0.997,3,10,3.432,281.5076457126694,7.046106,28.13149777,40.737703163342005,38.77515781166245
6723,3402.7,2774.7,20.65,0.189,0.009,0.971,3,10,3.483,290.56590453051996,6.080886,28.466236066,42.18094537616001,40.022851863707984
6772,3338.7,2719.6,20.85,0.168,-0.002,0.911,3,10,3.532,284.7958460234267,5.405232,28.747645957,43.58268548572351,39.22807796465933
6822,3282.8,2832.1,21.7,0.182,-0.051,0.863,3,10,3.582,296.5768184743884,5.855668,29.029168456999997,45.0271058460735,40.85080144275322
6872,3352.3,2809.0,21.78,0.215,-0.06,0.944,3,10,3.632,294.1577921311243,6.917409999999999,29.348495406999998,46.48654744267351,40.517602221917954
6926,3206.2,2755.6,21.66,0.233,-0.066,0.964,3,10,3.686,288.56575720773446,7.496542000000001,29.737672111,48.081873965659504,39.74734947764938
6976,3346.9,2802.7,21.63,0.21,-0.079,0.999,3,10,3.736,293.49805767387045,6.756539999999999,30.093999161,49.57766574745951,40.42672970714469
7026,3299.8,2824.1,21.9,0.236,-0.061,1.058,3,12,3.786,295.7390604334312,7.593063999999999,30.452739260999998,51.091334208009506,40.73540777319989
7076,3316.7,2924.0,22.11,0.268,-0.031,1.046,3,12,3.836,306.2005639698852,8.622632000000001,30.858131660999998,52.6241059810595,42.17638622174727
7126,3369.1,2836.1,22.12,0.252,-0.038,1.019,3,12,3.886,296.9956974948671,8.107848,31.276393661,54.177469114109506,40.90849827752991
7177,3193.5,2852.3,22.78,0.085,-0.068,0.893,3,12,3.937,298.6921575278056,2.7347900000000003,31.552880929999997,55.779615616179996,41.142170458375425
7227,3359.1,2891.8,22.9,0.126,-0.074,0.944,3,12,3.987,302.82858785503214,4.053924,31.72259878,57.36150260893,41.711926701795065
7277,3504.7,2899.4,23.07,0.142,-0.033,0.922,3,12,4.037,303.6244579939415,4.568707999999999,31.93816458,58.953021692929994,41.82155068787073
7327,3166.9,3055.3,23.23,0.102,-0.036,0.954,3,12,4.087,319.9502678170965,3.281748,32.134425979999996,60.55483645692999,44.07028482329153
7377,3380.3,2945.5,23.3,0.144,-0.066,0.979,3,10,4.137,308.45203870495783,4.633056,32.33229607999999,62.16650450842999,42.486506708671875
7428,3312.9,2915.5,23.4,0.23,-0.034,0.879,3,10,4.188,305.31044605136805,7.4000200000000005,32.63913951799999,63.823276116178995,42.05378044784684
7482,3366.1,3001.2,23.44,0.242,-0.038,0.967,3,13,4.242,314.28492906512287,7.786108,33.04916497399999,65.596860337463,43.28993513293703
7531,3316.4,2931.7,23.62,0.229,0.002,0.986,3,13,4.291,307.0069060843065,7.367846,33.420436847,67.22536558207752,42.28745262869236
7581,3320.1,3036.7,23.69,0.11,-0.079,0.945,3,15,4.341,318.0024803718708,3.53914,33.693111497,68.90320429067751,43.80199454158
7631,3330.6,2984.2,23.82,0.157,-0.178,0.957,3,16,4.391,312.5046932280886,5.051318,33.907872946999994,70.59322890177751,43.044723585136175
7682,3334.4,3104.6,24.11,0.108,-0.199,0.939,3,16,4.442,325.1129517444957,3.474792,34.125288751999996,72.32807452510201,44.78139831191401
7732,3428.2,3099.8,24.22,0.123,-0.194,1.02,3,15,4.492,324.6102969199213,3.957402,34.31109360199999,74.038984083952,44.712162110182
7782,3326.9,3001.2,24.44,0.251,-0.174,0.97,3,15,4.542,314.28492906512287,8.075674,34.61192050199999,75.762059436552,43.28993513293703
7832,3186.9,3126.0,24.62,0.237,-0.15,1.018,3,15,4.592,327.35395450405645,7.6252379999999995,35.00444330199999,77.50246853165199,45.09007637796921
7887,3495.1,3059.0,24.72,0.113,-0.127,1.053,3,15,4.647,320.3377309110392,3.635662,35.314118052,79.43622896888701,44.12365439545995
7936,3337.2,3147.6,24.94,0.131,-0.033,1.024,3,16,4.696,329.6159012146411,4.214794,35.506454223999995,81.17133298964899,45.40163928576324
7986,3509.8,3054.4,24.89,0.05,-0.071,0.888,3,16,4.746,319.8560200374888,1.6087,35.652041573999995,82.95029538459902,44.05730303546678
8037,3226.5,3085.5,24.97,0.185,-0.005,0.951,3,16,4.797,323.1128044217102,5.95219,35.84484426899999,84.77346597359549,44.505895925855405
8086,3381.0,3147.6,25.25,0.083,-0.03,0.957,3,15,4.846,329.6159012146411,2.670442,36.05609875299999,86.53503907763451,45.40163928576324
8136,3382.8,3063.7,25.21,0.107,0.068,1.009,3,16,4.896,320.8299137601016,3.442618,36.20892525299999,88.34166467778451,44.19144817632253
8187,3336.5,3207.2,25.33,0.073,-0.013,0.976,3,16,4.947,335.8571986197728,2.348702,36.356603912999994,90.19208567151752,46.26132212393565
8237,3408.7,3155.6,25.44,0.117,0.0,1.079,3,16,4.997,330.4536592555984,3.764358,36.50943041299999,92.01373652966751,45.51703295531658
8292,3265.3,3239.4,25.43,0.11,-0.047,0.974,3,16,5.052,339.2291747346259,3.53914,36.71027660799999,94.027278472745,46.72578164388786
8341,3499.2,3147.6,25.16,0.066,-0.062,0.912,3,16,5.101,329.6159012146411,2.123484,36.84901089599999,95.82948101659301,45.40163928576324
8391,3220.1,3127.9,25.42,0.12,-0.045,0.955,3,16,5.151,327.5529220387838,3.86088,36.99861999599999,97.675671788893,45.11748237448813
8441,3445.1,3231.0,25.78,0.196,0.056,0.983,3,16,5.201,338.3495287916207,6.306104,37.25279459599999,99.53195715369299,46.60461829085685
8491,3588.9,3167.6,26.21,0.207,0.018,1.031,3,16,5.251,331.7102963170343,6.660018,37.576947645999994,101.40270070974302,45.6901234596466
8541,3221.8,3325.6,26.3,0.201,-0.005,1.051,3,16,5.301,348.2560176259405,6.4669740000000004,37.90512244599999,103.28975246204301,47.96914843332514
8591,3440.0,3221.6,26.3,0.201,-0.005,1.051,3,16,5.351,337.3651630934959,6.4669740000000004,38.22847114599999,105.19309230184301,46.46903072913167
8641,3221.3,3157.6,26.3,0.201,-0.005,1.051,3,16,5.401,330.6630987658377,6.4669740000000004,38.55181984599999,107.112599576643,45.54588137270491
8692,3411.0,3273.3,26.08,0.149,-0.05,0.965,3,16,5.452,342.77917443318233,4.793926,38.838972795999986,109.08606478901402,47.21476231862016
8742,3376.3,3186.7,26.28,0.085,0.007,0.961,3,16,5.502,333.71044363981974,2.7347900000000003,39.027190695999984,111.03271887631401,45.9656258457052
8792,3371.2,3309.1,26.28,0.085,0.007,0.961,3,16,5.552,346.5281416664662,2.7347900000000003,39.16393019599998,112.987496898614,47.73114898987138
8842,3447.9,3272.3,26.4,0.172,-0.03,0.898,3,15,5.602,342.6744546780627,5.5339279999999995,39.370648145999986,114.95086135716403,47.200338109925994
8892,3382.4,3378.4,26.4,0.172,-0.03,0.898,3,15,5.652,353.7852206962586,5.5339279999999995,39.647344545999985,116.92631117446402,48.73074665237722
8942,3594.5,3352.3,26.62,0.15,-0.034,0.892,3,15,5.702,351.0520350876355,4.826099999999999,39.90634524599999,118.91515341926402,48.35427480545943
8992,3398.9,3257.3,26.78,0.267,-0.024,0.972,3,15,5.752,341.10365835126777,8.590458,40.24175919599998,120.918856030314,46.98397497951347
9042,3515.8,3283.0,26.95,0.126,0.038,0.952,3,15,5.802,343.794956057843,4.053924,40.55786874599998,122.938846728864,47.354677142953584
9092,3438.6,3237.3,26.95,0.126,0.038,0.952,3,15,5.852,339.0092632488746,4.053924,40.76056494599999,124.97180757116402,46.695490805630115
9142,3375.3,3202.0,26.98,0.031,0.073,0.961,3,15,5.902,335.3126558931506,0.997394,40.886847895999985,127.01299289221402,46.18631623872598
9193,3150.8,2996.7,26.98,0.031,0.073,0.961,3,15,5.953,313.8136901670844,0.997394,40.93771498999998,129.09951924580702,43.225026193813285
