timestamp_ms,pri_rpm,sec_rpm,speed_mph,g_x,g_y,g_z,fix_status,sat_count,time_s,driveline_angular_velocity,accel_x_ft_s_s,integrated_car_velocity_ft_s,effective_position_ft,tire_angular_velocity
5581,1369.0,0.0,0.18,0.084,0.022,0.914,3,16,0.0,0.0,2.702616,0.0,0.0,0.0
5632,1802.9,0.0,0.3,0.076,-0.032,1.032,3,16,0.051,0.0,2.445224,0.13126992,0.00334738296,0.0
5682,2185.6,0.0,0.18,0.056,-0.037,1.014,3,16,0.101,0.0,1.801744,0.23744412000000004,0.012565233960000005,0.0
5736,2440.7,618.7,0.06,0.057,-0.014,0.958,3,16,0.155,64.79011249253351,1.833918,0.33560699400000005,0.028037614038000005,8.92425791908175
5786,2589.0,280.9,0.09,0.298,0.024,1.076,3,16,0.205,29.41577921311243,9.587852,0.621151244,0.051956569987999995,4.0517602221917945
5836,2763.1,631.2,0.06,0.446,-0.008,1.066,3,16,0.255,66.09910943152926,14.349604,1.2195876440000002,0.09797504218800002,9.104560527758851
5886,2807.0,815.7,0.18,0.514,-0.013,1.157,3,16,0.305,85.41990425110649,16.537436,1.991763644,0.178258824388,11.765827031832849
5936,2830.9,391.7,0.56,0.734,0.055,0.974,3,16,0.355,41.01872808037073,23.615716,2.9955924439999997,0.302942726588,5.64996254550561
5986,2780.1,766.5,1.47,0.757,0.048,0.871,3,15,0.405,80.2676922992192,24.355718,4.1948782940000005,0.48270449503800017,11.05615596407978
6036,2747.6,799.6,2.33,0.74,0.064,0.857,3,16,0.455,83.73391619367996,23.80876,5.398990244,0.7225512084880001,11.533597271856744
6086,2820.9,692.9,3.25,0.784,0.036,0.802,3,16,0.505,72.56031832241226,25.224416,6.624819644,1.0231464556880001,9.994534204189016
6137,2964.4,750.6,3.78,0.692,0.049,0.866,3,16,0.556,78.60264819281662,22.264408,7.835784656,1.3918918653380004,10.82681104584251
6187,3099.7,837.2,4.67,0.743,0.026,0.845,3,16,0.606,87.67137898617916,23.905282,8.990026905999999,1.8125371543879998,12.075947518757461
6237,2846.8,849.2,5.34,0.769,-0.006,0.871,3,16,0.656,88.92801604761509,24.741806,10.206204106,2.2924429296880002,12.249038023087477
6292,2980.2,942.0,5.88,0.735,0.028,0.937,3,16,0.711,98.64600932271951,23.64789,11.536920745999998,2.8903788631179994,13.587604589906269
6341,3115.4,1006.2,6.36,0.636,0.01,0.892,3,16,0.76,105.36901760140167,20.462664,12.617629318999999,3.4821653397105,14.513638788071855
6391,3301.8,1032.7,7.17,0.583,0.022,0.984,3,16,0.81,108.14409111207264,18.757441999999998,13.598131969,4.1375593719105,14.895880318467308
6441,3141.5,1056.2,7.59,0.486,-0.012,0.996,3,16,0.86,110.60500535738466,15.636564,14.457982118999999,4.8389622241104995,15.234849222780255
6491,3332.8,1154.7,7.86,0.583,0.043,0.959,3,16,0.91,120.91990123667115,18.757441999999998,15.317832269,5.5833575838105,16.655633779155806
6541,3332.8,1152.3,8.2,0.502,0.032,0.925,3,16,0.96,120.66857382438394,16.151348,16.190552019,6.371067191010499,16.6210156782898
6591,3436.0,1270.0,8.78,0.445,0.032,0.923,3,16,1.01,132.9940890019679,14.31743,16.952271469,7.1996377782105,18.318745041593374
6642,3445.9,1288.3,8.93,0.485,0.018,0.904,3,16,1.061,134.91046052065767,15.604389999999999,17.715277879,8.083660286584498,18.58270806069665
6697,3609.9,1367.6,9.24,0.475,0.013,0.897,3,16,1.116,143.2147371016467,15.282649999999999,18.564671479,9.081358893929501,19.726547810144176
6746,3490.4,1358.9,9.86,0.414,-0.014,0.869,3,16,1.165,142.3036752321057,13.320036,19.265437286,10.008196558672,19.601057194504918
6797,3426.8,1424.5,10.15,0.495,-0.009,0.971,3,16,1.216,149.17329116795537,15.926129999999999,20.011214519,11.009751179699498,20.54728528484234
6847,3492.8,1485.7,10.15,0.495,-0.009,0.971,3,16,1.266,155.58214018127853,15.926129999999999,20.807521019,12.030219568149498,21.43004685692542
6896,3279.0,1518.8,10.73,0.352,0.027,0.929,3,16,1.315,159.04836407573924,11.325247999999998,21.475179779999998,13.066145737724996,21.907488164702375
6946,3482.7,1547.5,10.98,0.395,0.036,0.963,3,16,1.365,162.0538210476735,12.708730000000001,22.07602923,14.154925962974996,22.321462954225
6996,3326.5,1513.3,10.98,0.395,0.036,0.963,3,16,1.415,158.47240542258112,12.708730000000001,22.71146573,15.274613336974998,21.828155016884452
7049,3448.3,1613.7,11.47,0.34,0.036,0.875,3,16,1.468,168.986268836595,10.939160000000001,23.338134815,16.494927751417496,23.276345569778925
7099,3261.8,1555.2,11.62,0.343,0.013,0.842,3,16,1.518,162.8601631620949,11.035682000000001,23.887505865,17.6755687684175,22.432529361170097
7150,3575.9,1690.0,12.16,0.408,0.012,0.805,3,16,1.569,176.97638615222502,13.126992,24.503654052,18.909543346300996,24.376912693143943
7201,3672.6,1636.7,12.16,0.408,0.012,0.805,3,16,1.62,171.39482320434715,13.126992,25.173130644000004,20.176301356049,23.60810236974479
7250,3361.2,1786.7,13.04,0.364,0.006,1.035,3,16,1.669,187.10278647229612,11.711336,25.781669680000004,21.424693963986996,25.77173367386999
7300,3500.0,1841.6,13.27,0.378,0.032,0.94,3,16,1.719,192.8519010283654,12.161772,26.378497380000006,22.728698140486998,26.56362273117981
7350,3198.1,1913.1,13.54,0.394,0.052,0.936,3,16,1.769,200.33936351942108,12.676556,26.999455580000003,24.063146964486993,27.594953652812823
7400,3487.2,1906.6,13.74,0.413,0.042,0.923,3,16,1.819,199.6586851111433,13.287861999999999,27.648566030000005,25.429347504736995,27.501196296300733
7450,3425.2,1842.3,14.45,0.389,0.033,0.871,3,16,1.869,192.9252048569492,12.515686,28.293654730000007,26.827903023736997,26.57371967726573
7500,3558.5,1909.1,14.45,0.389,0.033,0.871,3,16,1.919,199.92048449894247,12.515686,28.919439030000007,28.258230367737,27.537256818036155
7550,3410.6,1887.5,14.81,0.342,0.048,0.937,3,16,1.969,197.65853778835782,11.003508,29.507418880000007,29.718901815487,27.225693910242125
7600,3660.5,1974.7,15.34,0.338,0.063,0.91,3,16,2.019,206.79010043479215,10.874812,30.054376880000007,31.207946709487004,28.483484908373576
7651,3461.4,1998.0,15.49,0.217,0.098,0.931,3,16,2.07,209.2300707290802,6.981758,30.509719415000003,32.752331165009494,28.81956897094769
7701,3321.3,2111.5,15.49,0.217,0.098,0.931,3,16,2.12,221.1157629351616,6.981758,30.858807315000004,34.2865443332595,30.456716657735758
7751,3623.2,2113.7,15.89,0.286,0.035,1.058,3,16,2.17,221.34614639642484,9.201763999999999,31.263395365,35.839599400259495,30.488449916862926
7801,3291.8,2104.8,15.89,0.286,0.035,1.058,3,16,2.22,220.4141405758599,9.201763999999999,31.723483565000002,37.4142713735095,30.360074459484835
7851,3497.1,2160.8,16.44,0.259,0.04,1.005,3,16,2.27,226.27844686256086,8.333066,32.161854315,39.0114048205095,31.167830146358245
7901,3365.5,2089.0,16.49,0.328,0.044,0.858,3,16,2.32,218.75956844496926,10.553072,32.634007765,40.63130137250949,30.132171962116978
7952,3440.2,2221.7,16.76,0.294,0.017,0.906,3,16,2.371,232.6558799493481,9.459156,33.144319579000005,42.308648719781495,32.046264455833075
8002,3593.5,2254.3,17.35,0.291,0.046,0.987,3,16,2.421,236.06974396624904,9.362634,33.614864329,43.97762831748149,32.516493659262956
8052,3334.1,2317.5,17.6,0.239,0.0,0.952,3,16,2.471,242.68803248981152,7.689585999999999,34.041169829000005,45.6690291714315,33.42810364873437
8102,3504.5,2261.9,17.6,0.239,0.0,0.952,3,16,2.521,236.86561410515844,7.689585999999999,34.425649129,47.38069964538149,32.62611764533863
8153,3239.6,2351.8,17.75,0.305,0.018,0.876,3,15,2.572,246.27992009041589,9.81307,34.871966857000004,49.147788853024494,33.92285400694434
8203,3436.8,2425.4,18.35,0.337,0.005,1.026,3,16,2.622,253.9872940672228,10.842638,35.388359557,50.90429701337449,34.9844757668351
8253,3242.7,2318.6,18.63,0.175,0.042,0.995,3,16,2.672,242.80322422044313,5.63045,35.800186757000006,52.6840106712245,33.443970278297954
8303,3410.6,2426.6,18.63,0.175,0.042,0.995,3,16,2.722,254.1129577733664,5.63045,36.08170925700001,54.481058071574495,35.001784817268096
8353,3411.8,2357.9,18.55,0.201,0.021,0.946,3,16,2.772,246.91871059664578,6.4669740000000004,36.384144857,56.292704424424485,34.01084167997876
8403,3247.1,2488.2,18.55,0.201,0.021,0.946,3,16,2.822,260.5636946887374,6.4669740000000004,36.70749355700001,58.1199953847745,35.890316072828846
8453,3412.0,2457.0,19.04,0.312,0.052,0.923,3,16,2.872,257.29643832900405,10.038288,37.12012510700001,59.965685851374495,35.440280761570804
8503,3245.5,2445.6,19.45,0.235,0.005,0.841,3,15,2.922,256.10263312063995,7.56089,37.56010455700001,61.832691592974506,35.27584478245729
8553,3389.3,2538.1,19.61,0.235,0.022,1.038,3,16,2.972,265.78921046920846,7.56089,37.93814905700001,63.7201479333245,36.61008408666783
8603,3419.8,2480.8,19.63,0.311,-0.023,1.045,3,16,3.022,259.788768500852,10.006114,38.37732415700001,65.62803476367449,35.78357692849201
8654,3339.5,2619.2,19.98,0.253,0.017,1.065,3,15,3.073,274.28198260941286,8.140022,38.84005062500001,67.5970778206155,37.77988741176486
8704,3409.9,2591.3,19.98,0.253,0.017,1.065,3,15,3.123,271.3603014415744,8.140022,39.24705172500001,69.5492553793655,37.377451989197574
8754,3302.9,2665.2,20.22,0.21,0.019,0.995,3,16,3.173,279.09909134491716,6.756539999999999,39.61946577500001,71.5209183168655,38.44340101169658
8804,3391.0,2687.4,20.75,0.246,-0.001,0.917,3,15,3.223,281.4238699085737,7.914804,39.98624937500001,73.5110611956155,38.76361844470712
8854,3338.9,2548.4,20.79,0.222,-0.014,0.891,3,15,3.273,266.867823946941,7.142628,40.36268517500001,75.5197845593655,36.75865343621776
8904,3345.8,2710.8,20.79,0.222,-0.014,0.891,3,15,3.323,283.8743121783737,7.142628,40.71981657500001,77.5468471031155,39.10114492815065
8954,3597.6,2646.2,21.0,0.313,-0.02,0.978,3,15,3.373,277.1094159976437,10.070462,41.150143825000015,79.59359611311551,38.1693410465074
9004,3286.6,2706.4,21.0,0.313,-0.02,0.978,3,15,3.423,283.4135452558472,10.070462,41.65366692500001,81.6636913818655,39.037678409896316
9054,3543.6,2757.9,21.35,0.186,-0.001,0.933,3,15,3.473,288.8066126445097,5.984364,42.05503757500001,83.7564089943655,39.78052515764597
9104,3353.1,2675.2,21.69,0.239,0.0,0.97,3,15,3.523,280.14628889611384,7.689585999999999,42.39688632500001,85.86770709186551,38.587643098638274
9155,3591.7,2757.1,21.83,0.26,0.036,0.997,3,16,3.574,288.72283684041395,8.36524,42.80628438800001,88.040387945047,39.76898579069063
9205,3420.2,2767.0,21.81,0.15,0.024,0.949,3,16,3.624,289.75956241609856,4.826099999999999,43.136067888000014,90.18894675194701,39.911785456762885
9255,3215.1,2895.2,21.94,0.197,-0.026,0.931,3,15,3.674,303.18463502243895,6.338278,43.415177338000014,92.35272788259701,41.76096901135523
9305,3585.1,2814.5,21.94,0.197,-0.026,0.931,3,15,3.724,294.7337507842824,6.338278,43.73209123800002,94.53140959699702,40.59693536973587
9355,3264.1,2748.0,22.34,0.12,-0.011,0.951,3,15,3.774,287.7698870688251,3.86088,43.98707018800002,96.72438863264702,39.637725491573704
9405,3450.7,2828.1,22.5,0.268,0.012,0.983,3,15,3.824,296.15793945390976,8.622632000000001,44.29915798800002,98.93154433704701,40.79310460797655
9455,3387.2,3042.3,22.7,0.166,0.024,1.05,3,15,3.874,318.5889110005409,5.340884,44.64824588800002,101.15522943394703,43.882770110267344
9505,3376.3,2908.7,22.84,0.104,0.034,1.035,3,15,3.924,304.59835171655436,3.3460959999999997,44.86542038800002,103.39307109084702,41.9556958287265
9555,3422.3,2851.4,22.84,0.104,0.034,1.035,3,15,3.974,298.5979097481979,3.3460959999999997,45.03272518800002,105.64052473024702,41.129188670550676
9605,3298.5,2955.1,22.84,0.104,0.034,1.035,3,15,4.024,309.45734835410656,3.3460959999999997,45.20002998800002,107.89634360964702,42.62497911213589
9656,3610.8,2942.9,22.84,0.136,0.022,0.929,3,15,4.075,308.17976734164677,4.375664,45.39693486800002,110.20656621347503,42.44900376606705
9706,3395.6,2879.4,23.32,0.151,0.032,0.987,3,15,4.125,301.53006289154837,4.858274,45.62778331800001,112.48218416812502,41.53306651398738
9756,3530.0,2970.0,23.32,0.208,-0.02,0.971,3,15,4.175,311.01767270538954,6.6921919999999995,45.91654496800001,114.77079237527501,42.839899821679005
9806,3443.9,2940.3,23.39,0.201,-0.001,0.928,3,15,4.225,307.90749597833565,6.4669740000000004,46.24552411800001,117.074844102425,42.41150082346221
9856,3300.7,2986.0,23.61,0.313,-0.051,0.916,3,15,4.275,312.6931887873041,10.070462,46.658960018000016,119.39745620582504,43.07068716078569
9906,3396.2,2951.6,23.92,0.163,-0.014,0.898,3,15,4.325,309.0908292111878,5.244362,47.04183061800001,121.73997597172503,42.57449438170631
9956,3378.9,2989.5,23.92,0.163,-0.014,0.898,3,15,4.375,313.0597079302228,5.244362,47.30404871800001,124.09862295512502,43.12117189121527
10006,3541.9,3058.1,24.19,0.242,-0.013,0.992,3,15,4.425,320.2434831314315,7.786108,47.62981046800001,126.47196943477502,44.110672607635195
10056,3258.0,2995.8,24.16,0.094,-0.022,1.018,3,15,4.475,313.71944238747676,3.024356,47.90007206800001,128.86021649817502,43.212044405988536
10106,3460.0,3045.1,24.16,0.094,-0.022,1.018,3,15,4.525,318.88212631487596,3.024356,48.05128986800001,131.25900054657507,43.923157894611016
10157,3639.7,2987.8,24.2,0.121,-0.032,1.007,3,15,4.576,312.8816843465195,3.893054,48.22768382300001,133.71411437569554,43.096650736435194
10207,3393.1,3465.0,24.64,0.107,-0.02,1.02,3,15,4.626,362.8539514896211,3.442618,48.41107562300001,136.13008336184558,49.97988312529217
10257,3464.4,3140.7,24.64,0.107,-0.02,1.02,3,15,4.676,328.89333490431545,3.442618,48.58320652300001,138.55494041549557,45.30211224577348
10307,3323.5,3173.6,24.67,0.165,-0.012,1.029,3,15,4.726,332.33861484775224,5.3087100000000005,48.801989723000005,140.98957032164554,45.7766687118116
10357,3442.5,3163.6,24.97,0.137,-0.021,0.909,3,15,4.776,331.29141729655566,4.407838,49.04490342300001,143.43574265029554,45.63242662486993
10407,3208.2,3035.8,24.97,0.137,-0.021,0.909,3,15,4.826,317.9082325922631,4.407838,49.26529532300001,145.89349761894553,43.78901275375525
10457,3501.4,3142.7,25.19,0.171,-0.042,0.962,3,15,4.876,329.10277441455474,5.501754,49.513035123000016,148.36295588009557,45.33096066316181
10507,3621.0,3125.0,25.18,0.187,0.001,0.911,3,15,4.926,327.2492347489368,6.016538,49.80099242300002,150.84580656874556,45.07565216927504
10557,3389.1,3179.7,25.18,0.187,0.001,0.911,3,15,4.976,332.97740535398214,6.016538,50.101819323000015,153.34337686239556,45.86465638484603
10607,3456.8,3149.6,25.55,0.218,-0.015,0.948,3,15,5.026,329.8253407248804,7.013932,50.42758107300001,155.85661187229556,45.43048770315157
10658,3403.9,3241.5,25.78,0.149,-0.054,0.981,3,15,5.077,339.4490862203772,4.793926,50.72868145200001,158.43609656668306,46.75607248214562
10708,3581.9,3193.9,25.78,0.149,-0.054,0.981,3,15,5.127,334.46442587668133,4.793926,50.96837775200001,160.97852304678307,46.069480148303214
10758,3402.3,3146.6,26.02,0.092,-0.026,0.919,3,15,5.177,329.5111814595214,2.9600079999999998,51.162226102000005,163.53178814313307,45.387215077069065
10808,3468.0,3256.3,25.99,0.144,-0.008,0.998,3,15,5.227,340.99893859614815,4.633056,51.35205270200001,166.0946451132331,46.9695507708193
10858,3417.8,3218.5,25.99,0.144,-0.008,0.998,3,15,5.277,337.04053185262495,4.633056,51.58370550200001,168.6680390683331,46.424315682179746
10908,3322.8,3315.6,26.0,0.169,-0.063,1.041,3,15,5.327,347.2088200747439,5.437406,51.835467052000006,171.25351838218307,47.824906346383464
10958,3462.2,3212.3,26.12,0.098,-0.042,0.973,3,15,5.377,336.39126937088315,3.153052,52.050228502,173.85066077103306,46.33488558827592
11008,3388.5,3656.3,26.22,0.187,-0.123,0.912,3,15,5.427,382.88684064401207,6.016538,52.279468252,176.45890318988305,52.73923424848651
11058,3448.5,3305.8,26.22,0.187,-0.123,0.912,3,15,5.477,346.1825664745713,6.016538,52.580295152000005,179.08039727498308,47.68354910118062
11108,3378.8,3272.3,26.38,0.087,-0.077,0.908,3,15,5.527,342.6744546780627,2.7991379999999997,52.80068705200001,181.71492183008309,47.200338109925994
11168,3462.8,3306.9,26.38,0.087,-0.077,0.908,3,15,5.587,346.2977582052029,2.7991379999999997,52.968635332000005,184.88800150160307,47.69941573074421
11217,3434.3,3403.7,26.7,0.188,-0.067,0.9,3,15,5.636,356.43463050078594,6.048712,53.185407657000006,187.48877555483358,49.09567913233966
11267,3551.8,3301.4,27.02,0.259,-0.035,1.041,3,15,5.686,345.7217995520448,8.333066,53.54495210700001,190.15703454893358,47.62008258292628
11317,3296.7,2943.8,27.02,0.259,-0.035,1.041,3,15,5.736,308.2740151212545,8.333066,53.96160540700001,192.84469848678359,42.4619855538918
11367,3665.0,3327.8,27.03,0.134,-0.024,0.972,3,15,5.786,348.4864010872038,4.311316000000001,54.27771495700001,195.55068149588357,48.00088169245231
